riskyGain 10.00, riskyLoss -4.76, safe, 0.00, loc, 2, choice, 1, outcome, 10.00, RT, 1.04, ISI, 1, ITI, 2, trial, 1, block, 1, triBlock, 1
riskyGain 7.00, riskyLoss -1.52, safe, 0.00, loc, 1, choice, 1, outcome, -1.52, RT, 0.70, ISI, 1, ITI, 1, trial, 2, block, 1, triBlock, 2
riskyGain 8.00, riskyLoss -1.25, safe, 0.00, loc, 2, choice, 1, outcome, -1.25, RT, 0.55, ISI, 1, ITI, 1, trial, 3, block, 1, triBlock, 3
riskyGain 2.00, riskyLoss -0.29, safe, 0.00, loc, 2, choice, 1, outcome, -0.29, RT, 0.55, ISI, 1, ITI, 1, trial, 4, block, 1, triBlock, 4
riskyGain 15.64, riskyLoss 0.00, safe, 8.18, loc, 1, choice, 1, outcome, 15.64, RT, 1.74, ISI, 1, ITI, 1, trial, 5, block, 1, triBlock, 5
riskyGain 2.00, riskyLoss -1.54, safe, 0.00, loc, 1, choice, 1, outcome, -1.54, RT, 1.03, ISI, 1, ITI, 2, trial, 6, block, 1, triBlock, 6
riskyGain 10.00, riskyLoss -9.09, safe, 0.00, loc, 2, choice, 0, outcome, 0.00, RT, 0.57, ISI, 1, ITI, 2, trial, 7, block, 1, triBlock, 7
riskyGain 21.39, riskyLoss 0.00, safe, 13.31, loc, 2, choice, 1, outcome, 0.00, RT, 0.43, ISI, 1, ITI, 3, trial, 8, block, 1, triBlock, 8
riskyGain 2.00, riskyLoss -0.80, safe, 0.00, loc, 1, choice, 1, outcome, -0.80, RT, 0.34, ISI, 1, ITI, 3, trial, 9, block, 1, triBlock, 9
riskyGain 25.47, riskyLoss 0.00, safe, 11.27, loc, 1, choice, 0, outcome, 11.27, RT, 0.39, ISI, 1, ITI, 2, trial, 10, block, 1, triBlock, 10
riskyGain 12.00, riskyLoss -4.29, safe, 0.00, loc, 2, choice, 1, outcome, -4.29, RT, 0.47, ISI, 1, ITI, 1, trial, 11, block, 1, triBlock, 11
riskyGain 27.06, riskyLoss 0.00, safe, 10.47, loc, 1, choice, 1, outcome, 0.00, RT, 0.53, ISI, 1, ITI, 3, trial, 12, block, 1, triBlock, 12
riskyGain 5.00, riskyLoss -2.08, safe, 0.00, loc, 1, choice, 1, outcome, 5.00, RT, 0.69, ISI, 1, ITI, 2, trial, 13, block, 1, triBlock, 13
riskyGain 5.00, riskyLoss -0.50, safe, 0.00, loc, 1, choice, 1, outcome, -0.50, RT, 0.61, ISI, 1, ITI, 2, trial, 14, block, 1, triBlock, 14
riskyGain 10.00, riskyLoss -2.70, safe, 0.00, loc, 2, choice, 1, outcome, -2.70, RT, 0.40, ISI, 1, ITI, 3, trial, 15, block, 1, triBlock, 15
riskyGain 2.00, riskyLoss -0.87, safe, 0.00, loc, 2, choice, 1, outcome, 2.00, RT, 0.45, ISI, 1, ITI, 1, trial, 16, block, 1, triBlock, 16
riskyGain 12.00, riskyLoss -6.00, safe, 0.00, loc, 2, choice, 1, outcome, 12.00, RT, 0.65, ISI, 1, ITI, 1, trial, 17, block, 1, triBlock, 17
riskyGain 13.73, riskyLoss 0.00, safe, 9.13, loc, 1, choice, 1, outcome, 13.73, RT, 0.54, ISI, 1, ITI, 2, trial, 18, block, 1, triBlock, 18
riskyGain 7.00, riskyLoss -3.68, safe, 0.00, loc, 1, choice, 1, outcome, 7.00, RT, 0.63, ISI, 1, ITI, 1, trial, 19, block, 1, triBlock, 19
riskyGain 24.82, riskyLoss 0.00, safe, 11.59, loc, 1, choice, 1, outcome, 24.82, RT, 0.63, ISI, 1, ITI, 2, trial, 20, block, 1, triBlock, 20
riskyGain 2.00, riskyLoss -1.18, safe, 0.00, loc, 1, choice, 1, outcome, 2.00, RT, 0.61, ISI, 1, ITI, 2, trial, 21, block, 1, triBlock, 21
riskyGain 2.00, riskyLoss -0.43, safe, 0.00, loc, 1, choice, 1, outcome, 2.00, RT, 0.49, ISI, 1, ITI, 1, trial, 22, block, 1, triBlock, 22
riskyGain 10.00, riskyLoss -5.88, safe, 0.00, loc, 1, choice, 1, outcome, 10.00, RT, 0.53, ISI, 1, ITI, 1, trial, 23, block, 1, triBlock, 23
riskyGain 2.00, riskyLoss -0.65, safe, 0.00, loc, 1, choice, 1, outcome, 2.00, RT, 0.50, ISI, 1, ITI, 3, trial, 24, block, 1, triBlock, 24
riskyGain 14.45, riskyLoss 0.00, safe, 8.78, loc, 2, choice, 1, outcome, 14.45, RT, 0.35, ISI, 1, ITI, 2, trial, 25, block, 1, triBlock, 25
riskyGain 2.00, riskyLoss -0.34, safe, 0.00, loc, 1, choice, 1, outcome, 2.00, RT, 0.40, ISI, 1, ITI, 2, trial, 26, block, 2, triBlock, 1
riskyGain 13.35, riskyLoss 0.00, safe, 1.32, loc, 1, choice, 1, outcome, 13.35, RT, 0.38, ISI, 1, ITI, 2, trial, 27, block, 2, triBlock, 2
riskyGain 8.00, riskyLoss -1.54, safe, 0.00, loc, 1, choice, 1, outcome, 8.00, RT, 0.75, ISI, 1, ITI, 1, trial, 28, block, 2, triBlock, 3
riskyGain 15.15, riskyLoss 0.00, safe, 8.42, loc, 1, choice, 1, outcome, 0.00, RT, 0.47, ISI, 1, ITI, 1, trial, 29, block, 2, triBlock, 4
riskyGain 5.00, riskyLoss -1.25, safe, 0.00, loc, 2, choice, 1, outcome, 5.00, RT, 0.66, ISI, 1, ITI, 3, trial, 30, block, 2, triBlock, 5
riskyGain 12.00, riskyLoss -10.00, safe, 0.00, loc, 1, choice, 0, outcome, 0.00, RT, 0.60, ISI, 1, ITI, 3, trial, 31, block, 2, triBlock, 6
riskyGain 5.00, riskyLoss -1.47, safe, 0.00, loc, 2, choice, 1, outcome, -1.47, RT, 0.66, ISI, 1, ITI, 1, trial, 32, block, 2, triBlock, 7
riskyGain 12.00, riskyLoss -1.88, safe, 0.00, loc, 1, choice, 1, outcome, -1.88, RT, 0.52, ISI, 1, ITI, 1, trial, 33, block, 2, triBlock, 8
riskyGain 12.00, riskyLoss -5.45, safe, 0.00, loc, 2, choice, 1, outcome, 12.00, RT, 1.09, ISI, 1, ITI, 2, trial, 34, block, 2, triBlock, 9
riskyGain 2.00, riskyLoss -4.00, safe, 0.00, loc, 2, choice, 1, outcome, -4.00, RT, 0.96, ISI, 1, ITI, 2, trial, 35, block, 2, triBlock, 10
riskyGain 10.00, riskyLoss -1.43, safe, 0.00, loc, 2, choice, 1, outcome, -1.43, RT, 0.44, ISI, 1, ITI, 1, trial, 36, block, 2, triBlock, 11
riskyGain 7.00, riskyLoss -1.21, safe, 0.00, loc, 1, choice, 1, outcome, 7.00, RT, 0.38, ISI, 1, ITI, 3, trial, 37, block, 2, triBlock, 12
riskyGain 12.00, riskyLoss -1.20, safe, 0.00, loc, 2, choice, 1, outcome, -1.20, RT, 0.71, ISI, 1, ITI, 2, trial, 38, block, 2, triBlock, 13
riskyGain 7.87, riskyLoss 0.00, safe, 4.07, loc, 1, choice, 1, outcome, 7.87, RT, 0.55, ISI, 1, ITI, 2, trial, 39, block, 2, triBlock, 14
riskyGain 32.00, riskyLoss 0.00, safe, 0.00, loc, 2, choice, 1, outcome, 32.00, RT, 0.51, ISI, 1, ITI, 2, trial, 40, block, 2, triBlock, 15
riskyGain 10.00, riskyLoss -4.35, safe, 0.00, loc, 1, choice, 1, outcome, 10.00, RT, 1.05, ISI, 1, ITI, 3, trial, 41, block, 2, triBlock, 16
riskyGain 12.00, riskyLoss -6.67, safe, 0.00, loc, 1, choice, 0, outcome, 0.00, RT, 0.59, ISI, 1, ITI, 2, trial, 42, block, 2, triBlock, 17
riskyGain 5.00, riskyLoss -5.00, safe, 0.00, loc, 1, choice, 1, outcome, -5.00, RT, 0.52, ISI, 1, ITI, 1, trial, 43, block, 2, triBlock, 18
riskyGain 7.00, riskyLoss -1.89, safe, 0.00, loc, 1, choice, 1, outcome, -1.89, RT, 0.63, ISI, 1, ITI, 1, trial, 44, block, 2, triBlock, 19
riskyGain 10.00, riskyLoss -1.72, safe, 0.00, loc, 1, choice, 1, outcome, 10.00, RT, 0.55, ISI, 1, ITI, 3, trial, 45, block, 2, triBlock, 20
riskyGain 8.00, riskyLoss -4.00, safe, 0.00, loc, 1, choice, 1, outcome, -4.00, RT, 0.60, ISI, 1, ITI, 2, trial, 46, block, 2, triBlock, 21
riskyGain 31.43, riskyLoss 0.00, safe, 8.29, loc, 1, choice, 1, outcome, 31.43, RT, 0.42, ISI, 1, ITI, 1, trial, 47, block, 2, triBlock, 22
riskyGain 16.68, riskyLoss 0.00, safe, 7.66, loc, 1, choice, 0, outcome, 7.66, RT, 1.01, ISI, 1, ITI, 1, trial, 48, block, 2, triBlock, 23
riskyGain 8.00, riskyLoss -11.43, safe, 0.00, loc, 2, choice, 0, outcome, 0.00, RT, 0.61, ISI, 1, ITI, 1, trial, 49, block, 2, triBlock, 24
riskyGain 5.00, riskyLoss -4.17, safe, 0.00, loc, 2, choice, 0, outcome, 0.00, RT, 0.64, ISI, 1, ITI, 1, trial, 50, block, 2, triBlock, 25
riskyGain 5.00, riskyLoss -2.50, safe, 0.00, loc, 2, choice, 1, outcome, 5.00, RT, 0.38, ISI, 1, ITI, 3, trial, 51, block, 3, triBlock, 1
riskyGain 7.00, riskyLoss -14.00, safe, 0.00, loc, 1, choice, 1, outcome, -14.00, RT, 0.49, ISI, 1, ITI, 3, trial, 52, block, 3, triBlock, 2
riskyGain 7.00, riskyLoss -7.78, safe, 0.00, loc, 1, choice, 0, outcome, 0.00, RT, 0.39, ISI, 1, ITI, 3, trial, 53, block, 3, triBlock, 3
riskyGain 7.00, riskyLoss -1.00, safe, 0.00, loc, 1, choice, 1, outcome, 7.00, RT, 0.49, ISI, 1, ITI, 3, trial, 54, block, 3, triBlock, 4
riskyGain 12.00, riskyLoss -7.50, safe, 0.00, loc, 2, choice, 1, outcome, -7.50, RT, 0.40, ISI, 1, ITI, 1, trial, 55, block, 3, triBlock, 5
riskyGain 7.00, riskyLoss -4.67, safe, 0.00, loc, 2, choice, 1, outcome, -4.67, RT, 0.48, ISI, 1, ITI, 3, trial, 56, block, 3, triBlock, 6
riskyGain 12.00, riskyLoss -3.53, safe, 0.00, loc, 1, choice, 1, outcome, -3.53, RT, 0.40, ISI, 1, ITI, 3, trial, 57, block, 3, triBlock, 7
riskyGain 8.00, riskyLoss -8.00, safe, 0.00, loc, 2, choice, 1, outcome, -8.00, RT, 0.51, ISI, 1, ITI, 2, trial, 58, block, 3, triBlock, 8
riskyGain 8.00, riskyLoss -4.44, safe, 0.00, loc, 1, choice, 1, outcome, 8.00, RT, 0.47, ISI, 1, ITI, 2, trial, 59, block, 3, triBlock, 9
riskyGain 23.76, riskyLoss 0.00, safe, 12.12, loc, 1, choice, 1, outcome, 0.00, RT, 0.42, ISI, 1, ITI, 3, trial, 60, block, 3, triBlock, 10
riskyGain 22.40, riskyLoss 0.00, safe, 4.80, loc, 1, choice, 1, outcome, 22.40, RT, 0.42, ISI, 1, ITI, 2, trial, 61, block, 3, triBlock, 11
riskyGain 12.00, riskyLoss -8.57, safe, 0.00, loc, 1, choice, 1, outcome, 12.00, RT, 0.70, ISI, 1, ITI, 3, trial, 62, block, 3, triBlock, 12
riskyGain 8.65, riskyLoss 0.00, safe, 3.68, loc, 2, choice, 1, outcome, 8.65, RT, 1.90, ISI, 1, ITI, 2, trial, 63, block, 3, triBlock, 13
riskyGain 5.00, riskyLoss -1.79, safe, 0.00, loc, 1, choice, 1, outcome, -1.79, RT, 0.82, ISI, 1, ITI, 3, trial, 64, block, 3, triBlock, 14
riskyGain 8.03, riskyLoss 0.00, safe, 3.99, loc, 1, choice, 1, outcome, 0.00, RT, 1.24, ISI, 1, ITI, 2, trial, 65, block, 3, triBlock, 15
riskyGain 8.00, riskyLoss -2.00, safe, 0.00, loc, 1, choice, 1, outcome, 8.00, RT, 0.65, ISI, 1, ITI, 2, trial, 66, block, 3, triBlock, 16
riskyGain 8.00, riskyLoss -0.80, safe, 0.00, loc, 2, choice, 1, outcome, -0.80, RT, 0.49, ISI, 1, ITI, 2, trial, 67, block, 3, triBlock, 17
riskyGain 10.00, riskyLoss -11.11, safe, 0.00, loc, 2, choice, 1, outcome, -11.11, RT, 0.72, ISI, 1, ITI, 3, trial, 68, block, 3, triBlock, 18
riskyGain 10.00, riskyLoss -6.67, safe, 0.00, loc, 1, choice, 1, outcome, -6.67, RT, 0.56, ISI, 1, ITI, 2, trial, 69, block, 3, triBlock, 19
riskyGain 24.26, riskyLoss 0.00, safe, 11.87, loc, 2, choice, 1, outcome, 0.00, RT, 0.34, ISI, 1, ITI, 3, trial, 70, block, 3, triBlock, 20
riskyGain 16.29, riskyLoss 0.00, safe, 7.85, loc, 2, choice, NaN, outcome, NaN, RT, NaN, ISI, 1, ITI, 3, trial, 71, block, 3, triBlock, 21
riskyGain 26.20, riskyLoss 0.00, safe, 10.90, loc, 1, choice, 0, outcome, 10.90, RT, 0.52, ISI, 1, ITI, 3, trial, 72, block, 3, triBlock, 22
riskyGain 8.00, riskyLoss -5.71, safe, 0.00, loc, 2, choice, 0, outcome, 0.00, RT, 0.47, ISI, 1, ITI, 1, trial, 73, block, 3, triBlock, 23
riskyGain 12.00, riskyLoss -2.31, safe, 0.00, loc, 1, choice, 1, outcome, 12.00, RT, 0.73, ISI, 1, ITI, 2, trial, 74, block, 3, triBlock, 24
riskyGain 8.00, riskyLoss -5.00, safe, 0.00, loc, 2, choice, 1, outcome, 8.00, RT, 0.60, ISI, 1, ITI, 3, trial, 75, block, 3, triBlock, 25
riskyGain 10.00, riskyLoss -7.69, safe, 0.00, loc, 2, choice, 0, outcome, 0.00, RT, 0.37, ISI, 1, ITI, 1, trial, 76, block, 4, triBlock, 1
riskyGain 5.00, riskyLoss -0.78, safe, 0.00, loc, 2, choice, 1, outcome, 5.00, RT, 0.54, ISI, 1, ITI, 3, trial, 77, block, 4, triBlock, 2
riskyGain 5.00, riskyLoss -7.14, safe, 0.00, loc, 2, choice, 0, outcome, 0.00, RT, 0.39, ISI, 1, ITI, 2, trial, 78, block, 4, triBlock, 3
riskyGain 8.00, riskyLoss -3.33, safe, 0.00, loc, 2, choice, NaN, outcome, NaN, RT, NaN, ISI, 1, ITI, 2, trial, 79, block, 4, triBlock, 4
riskyGain 17.65, riskyLoss 0.00, safe, 7.17, loc, 2, choice, 1, outcome, 17.65, RT, 0.57, ISI, 1, ITI, 1, trial, 80, block, 4, triBlock, 5
riskyGain 15.95, riskyLoss 0.00, safe, 8.03, loc, 1, choice, 1, outcome, 0.00, RT, 0.91, ISI, 1, ITI, 1, trial, 81, block, 4, triBlock, 6
riskyGain 5.00, riskyLoss -2.27, safe, 0.00, loc, 1, choice, 0, outcome, 0.00, RT, 0.65, ISI, 1, ITI, 2, trial, 82, block, 4, triBlock, 7
riskyGain 7.00, riskyLoss -6.36, safe, 0.00, loc, 1, choice, 0, outcome, 0.00, RT, 1.15, ISI, 1, ITI, 3, trial, 83, block, 4, triBlock, 8
riskyGain 2.00, riskyLoss -1.82, safe, 0.00, loc, 1, choice, 1, outcome, -1.82, RT, 0.35, ISI, 1, ITI, 3, trial, 84, block, 4, triBlock, 9
riskyGain 7.73, riskyLoss 0.00, safe, 4.14, loc, 1, choice, 0, outcome, 4.14, RT, 0.32, ISI, 1, ITI, 3, trial, 85, block, 4, triBlock, 10
riskyGain 8.00, riskyLoss -2.35, safe, 0.00, loc, 1, choice, 1, outcome, -2.35, RT, 0.42, ISI, 1, ITI, 2, trial, 86, block, 4, triBlock, 11
riskyGain 5.00, riskyLoss -3.13, safe, 0.00, loc, 1, choice, 1, outcome, -3.13, RT, 0.74, ISI, 1, ITI, 3, trial, 87, block, 4, triBlock, 12
riskyGain 8.00, riskyLoss -2.86, safe, 0.00, loc, 2, choice, 1, outcome, -2.86, RT, 1.24, ISI, 1, ITI, 3, trial, 88, block, 4, triBlock, 13
riskyGain 5.00, riskyLoss -2.78, safe, 0.00, loc, 1, choice, 1, outcome, -2.78, RT, 0.39, ISI, 1, ITI, 2, trial, 89, block, 4, triBlock, 14
riskyGain 7.00, riskyLoss -2.26, safe, 0.00, loc, 2, choice, 1, outcome, 7.00, RT, 0.34, ISI, 1, ITI, 3, trial, 90, block, 4, triBlock, 15
riskyGain 8.00, riskyLoss -6.67, safe, 0.00, loc, 2, choice, 0, outcome, 0.00, RT, 0.36, ISI, 1, ITI, 3, trial, 91, block, 4, triBlock, 16
riskyGain 7.00, riskyLoss -2.80, safe, 0.00, loc, 2, choice, 1, outcome, -2.80, RT, 1.28, ISI, 1, ITI, 3, trial, 92, block, 4, triBlock, 17
riskyGain 10.00, riskyLoss -5.26, safe, 0.00, loc, 1, choice, 0, outcome, 0.00, RT, 0.66, ISI, 1, ITI, 3, trial, 93, block, 4, triBlock, 18
riskyGain 18.83, riskyLoss 0.00, safe, 6.59, loc, 1, choice, 1, outcome, 0.00, RT, 0.46, ISI, 1, ITI, 2, trial, 94, block, 4, triBlock, 19
riskyGain 7.00, riskyLoss -3.04, safe, 0.00, loc, 2, choice, 1, outcome, -3.04, RT, 0.30, ISI, 1, ITI, 1, trial, 95, block, 4, triBlock, 20
riskyGain 7.00, riskyLoss -5.38, safe, 0.00, loc, 1, choice, 0, outcome, 0.00, RT, 0.91, ISI, 1, ITI, 1, trial, 96, block, 4, triBlock, 21
riskyGain 8.41, riskyLoss 0.00, safe, 3.79, loc, 1, choice, 0, outcome, 3.79, RT, 1.04, ISI, 1, ITI, 2, trial, 97, block, 4, triBlock, 22
riskyGain 2.00, riskyLoss -1.05, safe, 0.00, loc, 1, choice, 1, outcome, -1.05, RT, 0.54, ISI, 1, ITI, 2, trial, 98, block, 4, triBlock, 23
riskyGain 12.00, riskyLoss -3.00, safe, 0.00, loc, 1, choice, 1, outcome, -3.00, RT, 1.48, ISI, 1, ITI, 2, trial, 99, block, 4, triBlock, 24
riskyGain 10.00, riskyLoss -20.00, safe, 0.00, loc, 2, choice, 0, outcome, 0.00, RT, 0.64, ISI, 1, ITI, 3, trial, 100, block, 4, triBlock, 25
riskyGain 2.00, riskyLoss -2.22, safe, 0.00, loc, 1, choice, 1, outcome, 2.00, RT, 0.40, ISI, 1, ITI, 1, trial, 101, block, 5, triBlock, 1
riskyGain 2.00, riskyLoss -1.33, safe, 0.00, loc, 1, choice, 1, outcome, 2.00, RT, 0.49, ISI, 1, ITI, 1, trial, 102, block, 5, triBlock, 2
riskyGain 12.00, riskyLoss -5.00, safe, 0.00, loc, 2, choice, 0, outcome, 0.00, RT, 0.47, ISI, 1, ITI, 3, trial, 103, block, 5, triBlock, 3
riskyGain 5.00, riskyLoss -0.96, safe, 0.00, loc, 1, choice, 1, outcome, 5.00, RT, 0.50, ISI, 1, ITI, 2, trial, 104, block, 5, triBlock, 4
riskyGain 8.21, riskyLoss 0.00, safe, 3.90, loc, 2, choice, 1, outcome, 8.21, RT, 0.42, ISI, 1, ITI, 3, trial, 105, block, 5, triBlock, 5
riskyGain 17.13, riskyLoss 0.00, safe, 7.43, loc, 1, choice, 1, outcome, 0.00, RT, 0.44, ISI, 1, ITI, 1, trial, 106, block, 5, triBlock, 6
riskyGain 2.00, riskyLoss -0.54, safe, 0.00, loc, 2, choice, 1, outcome, -0.54, RT, 0.44, ISI, 1, ITI, 1, trial, 107, block, 5, triBlock, 7
riskyGain 2.00, riskyLoss -0.95, safe, 0.00, loc, 1, choice, 1, outcome, 2.00, RT, 0.38, ISI, 1, ITI, 2, trial, 108, block, 5, triBlock, 8
riskyGain 22.34, riskyLoss 0.00, safe, 12.83, loc, 2, choice, 1, outcome, 0.00, RT, 0.44, ISI, 1, ITI, 1, trial, 109, block, 5, triBlock, 9
riskyGain 8.92, riskyLoss 0.00, safe, 3.54, loc, 1, choice, 1, outcome, 8.92, RT, 0.49, ISI, 1, ITI, 2, trial, 110, block, 5, triBlock, 10
riskyGain 8.00, riskyLoss -3.64, safe, 0.00, loc, 2, choice, 1, outcome, 8.00, RT, 0.51, ISI, 1, ITI, 3, trial, 111, block, 5, triBlock, 11
riskyGain 10.67, riskyLoss 0.00, safe, 10.67, loc, 1, choice, 1, outcome, 0.00, RT, 0.44, ISI, 1, ITI, 1, trial, 112, block, 5, triBlock, 12
riskyGain 5.00, riskyLoss -3.57, safe, 0.00, loc, 2, choice, 1, outcome, -3.57, RT, 0.89, ISI, 1, ITI, 2, trial, 113, block, 5, triBlock, 13
riskyGain 7.00, riskyLoss -3.33, safe, 0.00, loc, 2, choice, 1, outcome, 7.00, RT, 0.37, ISI, 1, ITI, 2, trial, 114, block, 5, triBlock, 14
riskyGain 10.00, riskyLoss -4.00, safe, 0.00, loc, 2, choice, 1, outcome, -4.00, RT, 0.69, ISI, 1, ITI, 1, trial, 115, block, 5, triBlock, 15
riskyGain 7.33, riskyLoss 0.00, safe, 4.34, loc, 1, choice, 1, outcome, 0.00, RT, 0.78, ISI, 1, ITI, 1, trial, 116, block, 5, triBlock, 16
riskyGain 7.00, riskyLoss -4.12, safe, 0.00, loc, 2, choice, 1, outcome, -4.12, RT, 0.39, ISI, 1, ITI, 1, trial, 117, block, 5, triBlock, 17
riskyGain 19.88, riskyLoss 0.00, safe, 14.06, loc, 2, choice, 0, outcome, 14.06, RT, 0.50, ISI, 1, ITI, 3, trial, 118, block, 5, triBlock, 18
riskyGain 10.00, riskyLoss -2.17, safe, 0.00, loc, 1, choice, 1, outcome, 10.00, RT, 0.61, ISI, 1, ITI, 1, trial, 119, block, 5, triBlock, 19
riskyGain 7.04, riskyLoss 0.00, safe, 4.48, loc, 1, choice, 1, outcome, 7.04, RT, 0.40, ISI, 1, ITI, 1, trial, 120, block, 5, triBlock, 20
riskyGain 12.00, riskyLoss -17.14, safe, 0.00, loc, 1, choice, 0, outcome, 0.00, RT, 0.41, ISI, 1, ITI, 1, trial, 121, block, 5, triBlock, 21
riskyGain 10.00, riskyLoss -3.23, safe, 0.00, loc, 2, choice, 1, outcome, 10.00, RT, 0.38, ISI, 1, ITI, 3, trial, 122, block, 5, triBlock, 22
riskyGain 12.00, riskyLoss -12.00, safe, 0.00, loc, 2, choice, 0, outcome, 0.00, RT, 0.39, ISI, 1, ITI, 3, trial, 123, block, 5, triBlock, 23
riskyGain 23.31, riskyLoss 0.00, safe, 12.34, loc, 2, choice, 1, outcome, 0.00, RT, 0.46, ISI, 1, ITI, 1, trial, 124, block, 5, triBlock, 24
riskyGain 9.89, riskyLoss 0.00, safe, 3.05, loc, 2, choice, 1, outcome, 0.00, RT, 0.64, ISI, 1, ITI, 1, trial, 125, block, 5, triBlock, 25
